"Wavelength","Value"
206.63,.4613
210.14,.4827
213.75,.5043
217.5,.5218
221.38,.5343
225.41,.5418
229.59,.5543
233.91,.5769
238.41,.6015
243.09,.6199
247.96,.6128
253.02,.5913
258.29,.5773
263.79,.5433
269.51,.4932
275.5,.449
281.77,.4191
288.32,.3998
295.19,.3872
302.38,.3799
309.94,.3761
317.9,.3758
326.25,.3782
335.07,.3834
344.39,.3912
354.23,.4025
364.65,.4193
375.69,.4459
387.44,.4581
399.93,.4537
413.26,.4266
427.51,.4038
442.79,.3858
459.18,.3715
476.85,.3594
495.92,.3494
516.58,.3407
539.03,.3333
563.54,.327
590.38,.3217
619.89,.3172
652.52,.3133
688.78,.3102
729.28,.308
774.87,.3066
826.53,.3052
885.57,.3
953.69,.2932
1033.17,.2857
1127.08,.2807
1239.79,.2767
1377.56,.2733
1549.75,.2704
1771.14,.2679
2066.32,.2658
