Wavelength(nm),Refl
370,0.05877
380,0.05796
390,0.05724
400,0.05661
410,0.05604
420,0.05554
430,0.05508
440,0.05466
450,0.05429
460,0.05395
470,0.05363
480,0.05334
490,0.05308
500,0.05283
510,0.05260
520,0.05239
530,0.05219
540,0.05201
550,0.05184
560,0.05168
570,0.05152
580,0.05138
590,0.05125
600,0.05112
610,0.05100
620,0.05088
630,0.05078
640,0.05067
650,0.05058
660,0.05049
670,0.05040
680,0.05031
690,0.05023
700,0.05016
710,0.05009
720,0.05002
730,0.04995
740,0.04989
750,0.04982
760,0.04977
770,0.04971
780,0.04966
790,0.04960
800,0.04955
810,0.04951
820,0.04946
830,0.04942
840,0.04937
850,0.04933
860,0.04929
870,0.04925
880,0.04922
890,0.04918
900,0.04915
910,0.04911
920,0.04908
930,0.04905
940,0.04902
950,0.04899
960,0.04896
970,0.04893
980,0.04891
990,0.04888
1000,0.04886
1010,0.04883
1020,0.04881
1030,0.04878
1040,0.04876
1050,0.04874
1060,0.04872
1070,0.04870
1080,0.04868
1090,0.04866
1100,0.04864
